BEGIN IONS
TITLE=id=PRD000211;PRIDE_Exp_Complete_Ac_12575.xml;spectrum=1
400.606	84463.688
592.650	747229.125
626.335	26193.721
607.366	229219.766
231.288	9923.552
870.890	35235.750
758.346	78187.805
642.649	40589.254
645.772	40846.457
205.817	7601.426
307.143	48600.285
362.910	42100.660
667.625	343772.969
756.435	104319.578
666.520	432511.094
834.722	7951.829
704.083	9093.816
583.495	15608.863
339.543	11158.674
816.500	58451.172
516.805	3290.559
674.474	20205.949
384.603	986137.438
321.020	68455.164
684.840	154717.078
800.357	37221.172
389.630	129197.680
610.877	33799.457
758.802	87758.813
813.839	5317.049
542.874	38152.074
795.512	10793.133
273.542	16985.125
954.266	51373.336
686.625	1857.584
470.997	80289.758
623.214	21495.834
433.500	2324.770
215.304	35387.961
398.788	86190.250
774.237	37465.520
769.350	25582.549
440.521	147625.672
746.204	42667.285
313.577	129794.875
445.701	1382045.625
682.944	55049.969
385.669	387760.313
422.850	110582.156
335.813	5820.130
483.542	27218.734
716.854	39719.344
266.811	55096.785
736.787	41322.996
262.073	6863.912
744.848	45050.078
743.638	29848.115
370.984	103894.219
325.414	57007.281
337.507	78176.602
742.717	364737.906
225.607	144488.531
685.302	6896.993
504.655	43507.871
539.542	108427.266
762.750	5560.194
754.344	26283.207
549.865	90999.328
442.674	508473.813
403.147	15430.204
297.073	27034.174
410.914	121546.648
670.812	43587.523
426.436	8528.682
557.581	10911.326
452.716	25275.396
448.483	23457.838
769.804	35357.320
620.095	47739.059
300.425	105962.492
226.906	41060.043
594.610	459985.656
228.630	710678.875
365.455	23619.910
548.576	51953.570
319.846	29944.855
417.632	76745.406
797.244	38912.160
285.082	27256.324
409.110	12484.915
449.680	124649.602
779.680	22267.105
683.949	18434.711
216.732	538767.063
250.685	203847.875
372.611	474249.563
462.062	18829.305
624.725	67412.609
303.625	12217.367
814.648	91092.742
505.699	16254.721
719.461	24353.449
354.831	104287.383
205.480	115701.438
423.390	18349.801
715.630	24410.572
503.625	6505.361
465.425	25019.457
678.678	68546.945
724.641	29537.662
522.640	43852.688
516.346	30552.393
228.830	73098.242
340.694	92193.391
217.911	27493.449
441.834	177787.219
447.699	267793.156
544.254	7140.769
622.962	42614.430
383.468	8486.520
278.073	46742.727
265.491	22065.381
359.000	3499.220
639.550	23937.400
428.657	251416.141
731.333	6462.856
629.912	13555.449
597.686	43203.027
562.778	30972.598
434.704	33978.637
477.725	246850.813
545.051	23104.602
472.921	48992.117
515.393	49053.359
219.743	221511.578
459.723	667615.063
271.867	27560.746
646.878	58305.246
337.005	6053.708
245.711	19865.770
498.746	28034.832
476.778	23886.604
200.558	103428.672
363.452	13352.846
507.709	24833.064
241.321	35630.652
386.217	32817.938
254.766	224419.672
371.877	93860.578
200.023	7404.176
256.866	34634.664
262.575	87529.555
405.038	14768.114
535.750	237149.953
237.968	22557.766
246.633	251598.703
421.896	44512.109
432.867	12914.306
304.459	152960.172
651.494	20163.307
317.356	31654.908
498.335	32213.834
236.478	34889.281
462.537	82895.953
481.765	36675.742
485.275	14438.496
302.539	129301.898
580.526	68206.625
279.554	96175.273
599.813	2069.263
757.222	17552.113
232.399	15429.173
458.641	1441043.625
642.224	8154.287
548.029	4724.294
486.588	52742.387
218.541	137239.094
625.895	16507.916
400.867	42149.219
470.203	10705.780
492.658	12524.486
688.407	59405.816
502.194	34540.086
574.740	83508.180
232.776	45880.906
475.792	296466.094
346.736	65274.379
463.897	50287.859
630.730	9569.176
884.586	21980.564
716.452	15202.902
229.658	94377.133
431.637	69992.438
260.766	43483.961
567.176	29408.119
426.942	66702.273
202.706	261891.203
241.897	19492.461
223.548	566584.875
698.411	27865.627
501.712	7292.157
210.627	522501.375
891.736	82833.969
240.633	368934.469
252.732	26268.008
538.702	163450.422
869.188	1966.532
395.669	7594.341
599.439	71221.633
276.909	31018.660
268.478	88004.719
712.703	52399.336
209.705	49689.895
450.517	83819.492
446.721	1156526.125
264.733	110796.273
366.105	9620.297
524.949	11870.650
528.838	55095.297
257.705	8967.669
596.115	40775.164
331.636	49796.480
310.680	305877.375
370.659	1603138.500
217.653	183605.578
357.822	16509.666
681.375	95252.852
288.662	99709.875
774.592	27052.639
519.864	136969.734
437.314	13294.625
816.793	46425.953
686.068	16927.641
652.918	6122.966
593.600	659439.000
672.416	62834.832
521.650	297274.313
299.642	84392.117
287.514	34251.281
533.769	558958.438
429.882	8100.844
783.606	19513.141
351.509	31744.703
568.581	30206.893
366.830	24533.730
359.858	28715.873
301.550	71828.180
683.566	69164.852
208.689	386885.031
236.845	116102.086
424.964	104528.516
303.378	55779.621
518.621	1741839.375
287.908	31729.074
611.597	3092.964
500.170	45836.516
665.579	15909.978
553.889	10564.795
609.750	243924.719
759.928	62505.449
733.333	8410.110
267.530	95363.367
614.084	71418.984
377.000	2370.986
575.727	32990.152
663.462	15900.781
390.753	816676.563
411.894	10509.602
414.359	82331.883
214.732	43449.762
439.247	31361.242
699.423	5317.480
625.302	26602.965
463.560	64228.246
1006.766	20229.287
204.623	491383.500
241.045	151796.125
355.721	50784.902
536.803	108659.313
612.398	19946.711
676.415	89791.391
238.604	1435889.750
326.556	31757.529
474.486	46786.895
309.950	29658.838
632.263	9310.532
817.526	41578.793
581.908	21239.510
788.548	17748.609
677.633	111358.680
531.714	99355.914
485.834	23471.357
505.416	33013.363
631.132	31633.170
713.146	64049.629
469.834	98504.180
773.394	30768.457
578.788	11188.080
452.032	26161.830
777.473	23267.924
403.711	172432.313
445.899	105588.141
434.139	8789.471
551.825	4169.571
274.015	37063.543
283.659	26708.209
278.794	235779.609
743.270	75654.633
249.220	20342.879
349.401	35283.402
379.528	9555.263
396.967	308631.375
297.509	194196.297
237.602	43741.180
477.155	8316.580
353.230	4902.340
608.649	526386.125
710.034	37743.371
761.271	87210.500
529.804	34108.539
375.839	17227.273
335.649	37273.438
357.480	15500.639
652.161	17873.615
489.902	5817.711
806.037	13809.261
669.351	82446.703
964.672	20147.787
262.787	11640.233
208.094	91914.453
544.901	71367.352
211.236	24668.445
387.599	203799.313
334.484	36272.344
461.008	69669.953
464.509	23785.475
437.087	42838.684
316.189	62849.570
1103.977	12182.554
789.828	75343.398
321.609	42734.117
296.696	1056386.500
310.905	46892.941
221.721	111604.547
503.362	62404.570
508.582	16646.424
430.565	75093.883
654.762	37651.402
768.660	15372.900
425.375	1558.453
353.994	24012.463
591.285	53482.789
613.640	41509.113
376.356	12381.494
279.834	16529.342
675.267	79658.242
427.771	53357.938
302.839	13987.637
368.684	2452952.000
615.018	51822.348
693.555	79466.719
242.585	167990.125
438.929	129137.164
889.811	44500.270
739.292	36663.746
409.539	54849.246
313.750	22905.938
269.393	51742.191
687.078	30596.348
352.797	27388.652
441.049	149101.516
526.332	36500.324
543.963	68432.563
291.580	28360.121
256.014	67709.781
350.499	10956.114
605.673	39937.586
397.865	80774.539
596.680	28415.184
379.327	39893.566
416.595	49783.109
886.548	10018.846
579.687	50056.281
540.375	61996.664
227.609	213542.266
297.858	84029.219
383.077	11451.783
577.539	86179.680
740.532	209005.063
519.644	1098916.750
468.100	16212.517
707.499	7138.455
755.604	23460.268
1342.797	0.000
555.640	40416.762
325.774	10518.792
397.339	45700.770
275.544	12674.092
256.690	117822.805
562.351	22718.943
459.220	318877.656
665.200	122489.000
579.157	8436.148
479.946	3589.938
276.605	237136.141
220.958	8635.953
481.023	131743.719
305.887	22948.400
780.529	34896.965
662.351	13363.986
363.950	8338.156
410.051	12570.419
734.350	25105.238
323.558	36200.066
247.527	13346.013
460.181	89766.875
494.403	19519.459
231.824	9088.719
672.563	10408.202
829.648	30262.113
251.732	54889.625
324.717	48974.117
553.073	96341.031
511.575	9296.868
668.626	225957.063
704.575	6604.327
572.490	72541.117
532.690	1594848.750
204.835	55127.727
628.409	17823.582
271.480	4303.607
384.840	177928.203
878.737	15020.662
466.217	45675.258
270.782	128497.078
1089.904	7861.171
965.624	40636.777
290.202	6956.875
388.828	20815.264
509.454	7569.905
752.455	59901.797
235.405	20441.904
926.614	8725.959
355.427	284426.063
588.040	104425.102
484.962	41866.301
224.812	107008.516
371.642	343221.938
669.642	57394.250
948.887	10380.021
243.195	86497.258
520.764	402593.156
253.956	36206.441
464.963	15146.714
479.576	20925.639
480.619	28500.986
623.719	73353.031
1166.221	60919.754
406.347	10600.483
388.610	418685.719
540.710	13412.510
687.967	23313.926
608.004	90218.148
267.819	10367.616
720.893	25341.461
450.963	37902.199
946.069	18143.314
362.142	2816.163
258.452	107556.094
401.678	285554.063
682.453	41869.008
787.521	19407.744
274.606	137306.406
373.536	228816.047
581.611	83398.602
782.462	9768.854
261.408	34283.340
324.482	128904.461
222.588	2077301.125
214.414	55972.070
691.518	40411.957
490.529	5530.655
201.539	24471.586
384.109	70455.016
728.657	35118.871
738.702	30519.283
280.628	106572.438
312.812	154298.578
218.845	46558.156
705.359	37933.648
574.039	27816.260
444.918	377261.688
476.539	120211.508
294.594	1360130.875
292.834	167016.844
285.844	24870.707
804.290	27238.975
258.840	108118.523
1041.893	6935.585
500.938	2009.513
988.625	1935.934
314.777	71177.039
647.724	15498.357
535.105	105305.680
592.992	193102.516
588.514	9035.150
338.863	44051.500
755.312	81976.508
560.667	78945.258
284.750	223659.531
613.077	57416.500
400.207	74986.891
280.271	83645.352
226.682	604243.438
358.714	104313.914
461.695	307460.875
327.024	104069.711
413.452	25672.787
550.449	23123.348
515.969	123228.844
1110.166	49534.031
274.867	50603.230
913.244	10061.541
666.848	177881.109
277.680	11867.458
444.684	3089906.750
595.591	70889.070
751.728	3306.782
493.486	61266.762
233.274	5964.063
474.928	23336.338
347.071	47335.250
305.559	52317.598
637.212	11595.017
524.018	23609.883
306.697	229242.672
429.068	83709.078
272.746	77675.469
206.750	424295.656
783.380	47361.770
518.878	335222.125
448.063	5395.325
483.057	20585.418
311.754	44030.859
456.269	16401.166
467.137	37006.855
347.619	28982.027
623.884	8442.952
421.520	45462.285
489.595	78759.523
638.785	14809.860
854.610	37298.238
281.458	132132.047
660.737	44157.641
600.820	26671.582
510.222	28566.287
326.178	55648.551
300.818	94580.813
1085.035	17816.576
341.089	50297.828
776.391	42778.566
770.077	14402.608
720.543	78109.969
374.537	54474.125
570.893	39484.586
1031.831	35072.816
673.918	17151.947
336.676	66373.633
1073.937	16839.830
571.391	1898.324
534.648	559745.500
621.978	22500.367
215.664	29759.551
391.730	291492.125
432.386	34956.336
369.691	669332.938
757.534	9085.123
706.528	3851.466
818.745	29826.787
598.413	14469.775
224.589	298831.813
492.361	16390.352
854.915	20542.943
779.290	46041.828
298.580	468230.031
248.816	40395.121
411.540	32191.492
796.516	29961.094
238.977	67720.898
390.930	91879.594
235.778	48070.375
559.298	13818.005
286.348	75512.883
525.424	83859.000
878.320	17234.875
687.830	126684.422
393.932	18870.572
817.808	31410.943
852.785	14827.369
640.478	10178.322
463.019	9074.385
851.226	59376.980
356.763	180938.438
809.741	37033.820
213.000	42532.387
629.266	9274.907
327.599	46664.945
418.561	61865.539
416.876	6673.557
268.825	22654.971
407.819	29380.295
207.745	24821.070
667.907	219593.688
650.758	22900.510
882.125	2148.354
295.689	620395.750
208.898	45398.313
249.715	25108.916
266.345	102398.422
234.717	1254210.875
837.701	12281.644
799.387	44626.074
213.616	309756.938
315.803	85135.500
648.661	4291.039
419.730	25539.986
717.159	28256.473
890.896	48408.852
212.738	206410.313
415.542	21996.322
430.972	25762.313
253.445	73301.422
230.003	17358.469
925.079	3167.589
442.827	38962.895
309.229	72736.891
491.180	15211.511
373.716	32128.984
375.085	128347.563
772.226	24596.092
347.924	37775.121
386.880	265865.500
457.925	109953.266
402.635	66358.594
239.672	261698.047
299.928	3660.283
211.767	49373.484
536.372	25802.801
634.387	8197.502
377.789	44264.531
268.996	12568.411
606.732	1040542.313
680.688	377660.094
493.792	58860.414
616.687	66881.742
478.353	38111.371
341.497	14684.209
921.270	48687.074
381.021	68816.211
663.954	33995.313
203.951	16945.293
429.663	71269.664
497.868	40633.074
341.960	20350.057
290.893	92422.656
418.924	21707.678
344.967	109171.195
269.794	19471.492
402.022	29275.600
685.885	100318.180
814.833	26376.400
615.350	25685.188
990.401	26025.979
821.534	130584.188
725.535	15821.990
681.740	172763.250
491.646	47952.020
828.339	13698.490
230.619	91482.406
443.684	458559.813
318.694	79784.695
216.892	82015.172
395.031	29695.037
696.012	10927.755
508.962	25052.582
539.883	18514.648
537.269	60450.035
648.207	56063.473
850.241	15051.770
703.413	29682.111
286.824	38816.824
591.791	30231.289
811.578	37277.148
633.521	96835.484
762.418	130888.391
282.729	157087.984
367.910	57663.176
556.486	77293.438
259.698	88756.891
354.660	672068.313
500.532	29907.846
257.952	2001.531
547.576	10341.685
203.575	147669.297
327.955	9288.464
322.686	38692.059
707.848	8233.824
460.709	570341.063
617.732	51519.363
537.826	63228.309
718.873	49739.805
263.704	30773.965
593.838	63531.641
506.998	25991.490
607.719	517277.125
220.676	505043.938
412.702	13149.910
606.897	73875.172
741.645	123019.219
550.833	43931.254
502.545	28455.238
549.479	47875.992
229.146	20168.635
END IONS
BEGIN IONS
TITLE=id=PRD000211;PRIDE_Exp_Complete_Ac_12575.xml;spectrum=2
PEPMASS=228.02011108398438
456.514	996.548
200.556	9415.118
238.407	12933.149
249.134	1656.013
210.550	36238.648
246.652	297.287
390.846	726.940
225.657	96016.219
204.489	1206.182
242.276	779.939
231.529	4977.239
212.446	7028.037
235.709	1086.418
596.919	0.000
227.586	69486.656
248.071	1238.163
250.993	3663.664
234.237	299.962
229.319	18194.354
205.288	1003.644
244.286	2494.449
245.839	834.023
214.905	800.977
228.543	105816.469
230.411	16154.489
245.140	553.496
215.703	115.307
239.257	882.699
232.268	3078.716
243.514	3469.723
214.285	3985.125
211.525	3728.923
262.814	2260.506
251.451	1051.115
259.452	2826.629
226.545	410104.250
241.368	2680.802
237.074	94.003
208.528	144071.359
256.312	772.643
224.593	9019.321
209.526	57005.141
260.434	1890.249
254.287	1707.706
END IONS
BEGIN IONS
TITLE=id=PRD000211;PRIDE_Exp_Complete_Ac_12575.xml;spectrum=3
PEPMASS=311.0770263671875
214.492	188.821
252.400	545.409
246.141	3030.500
266.555	2311.702
229.318	703.107
306.850	1999.763
208.416	1291.843
292.621	28247.400
296.490	5472.507
253.251	1571.687
316.077	19570.000
243.768	3745.755
294.488	259207.234
283.647	994.490
236.661	2896.565
361.278	840.293
328.245	2308.170
321.340	1612.065
319.991	1058.919
337.587	1455.346
313.709	20625.682
277.519	5075.218
247.194	368.848
248.574	1069.629
314.365	21422.963
232.720	450.896
226.268	1955.570
332.210	656.377
221.200	106.688
330.374	700.234
316.712	4395.261
203.270	788.618
317.560	3930.443
230.338	1647.608
249.405	2855.940
338.657	675.730
318.308	4386.236
238.453	36131.887
254.523	1104.061
263.468	663.423
245.053	1039.119
212.639	1356.187
220.470	13116.210
235.450	1028.742
299.568	1223.196
222.529	3818.895
284.723	662.508
232.078	2252.800
250.837	2338.570
325.906	534.086
356.926	738.684
322.964	677.585
310.576	18987.805
282.637	14331.115
309.534	15482.405
648.692	0.000
312.448	66548.500
223.476	7643.515
241.520	5369.237
204.446	13505.341
322.207	4701.122
308.490	4823.050
240.633	4399.508
239.477	18535.732
280.369	344.347
202.170	501.439
209.339	1602.260
275.835	394.432
340.123	461.769
224.434	5275.102
318.851	438.137
228.381	2926.524
227.354	1196.068
289.594	547.136
295.502	80348.578
250.137	1389.705
END IONS
BEGIN IONS
TITLE=id=PRD000211;PRIDE_Exp_Complete_Ac_12575.xml;spectrum=4
PEPMASS=276.9076843261719
278.417	2699.932
283.247	145.764
286.188	2079.500
276.567	128176.242
247.824	1096.949
308.671	956.600
294.028	370.203
282.347	9656.250
275.538	20936.852
280.128	998.090
271.537	1644.930
220.467	13089.092
231.670	1045.566
272.734	3337.968
235.600	61.379
204.334	1320.223
240.589	201.021
279.307	873.078
274.601	51918.395
221.471	4522.294
266.404	6106.064
268.260	3282.384
234.378	7477.156
248.549	486.322
259.487	4021.205
250.330	705.124
293.148	1530.057
298.245	1155.642
284.228	2307.987
300.719	307.307
230.460	1547.138
256.703	2756.594
426.460	0.000
255.967	2967.593
258.598	5935.730
218.415	281.356
264.544	1997.185
260.011	314.025
229.265	1085.951
202.420	2007.764
257.488	3750.082
241.520	1594.575
242.446	346.031
277.558	18109.104
END IONS
BEGIN IONS
TITLE=id=PRD000211;PRIDE_Exp_Complete_Ac_12575.xml;spectrum=5
PEPMASS=284.5599060058594
268.492	6917.846
314.484	1363.955
242.649	1113.893
248.703	1904.708
295.224	2070.870
302.078	3300.818
250.449	1166.214
299.395	17208.621
307.457	1395.862
240.265	1095.671
236.510	1626.915
283.497	50095.359
306.686	1811.769
284.625	27478.287
263.406	2221.919
255.460	956.226
200.578	666.603
265.597	5579.371
286.520	3963.413
282.581	178420.203
310.886	823.831
303.405	8863.845
290.419	1623.239
270.352	4590.066
309.639	529.455
221.111	322.499
256.502	162.459
207.648	472.978
208.565	2419.007
270.761	998.528
218.489	600.887
239.521	3088.930
226.549	745.983
242.284	1018.779
253.507	840.094
291.317	1994.374
266.649	18764.127
311.619	1175.515
287.157	2045.820
264.479	13914.473
267.535	3868.306
288.863	1116.812
251.694	1454.355
325.707	753.643
209.707	837.679
244.294	219.300
214.625	2592.301
228.534	2641.742
301.274	3559.133
257.451	1260.289
645.888	312.081
315.191	484.278
285.751	4929.912
304.719	882.756
304.381	1865.686
652.919	0.000
298.463	28063.465
234.767	858.313
292.922	2182.021
224.464	6023.766
227.030	221.909
308.448	511.160
204.643	296.964
318.702	792.105
312.532	661.138
230.053	1759.316
222.517	3072.733
305.851	2841.391
281.339	2687.119
213.647	1161.829
277.747	925.960
246.731	529.472
246.158	2256.717
300.424	9245.264
END IONS
BEGIN IONS
TITLE=id=PRD000211;PRIDE_Exp_Complete_Ac_12575.xml;spectrum=1959
PEPMASS=438.5117492675781
537.715	440.655
465.858	122.897
338.908	855.671
210.439	250.286
466.862	1358.081
392.908	4112.864
248.631	719.913
419.167	4529.978
259.498	1841.472
436.832	12903.271
367.337	2602.054
405.507	507.444
437.577	3003.700
250.284	681.204
292.302	384.099
450.708	321.428
423.326	625.774
442.035	231.186
454.531	271.551
341.587	452.140
393.750	1466.024
314.323	1675.895
420.908	8945.796
377.712	619.474
237.695	1351.811
429.652	3707.333
298.742	4192.047
218.515	430.523
395.458	555.284
333.667	1608.541
438.790	23521.049
411.088	101.054
224.643	470.078
368.467	1263.524
228.450	1540.154
406.861	1170.518
376.714	491.706
381.050	1547.726
270.050	143.591
346.717	599.069
415.248	1456.086
716.489	0.000
444.923	1639.896
354.564	276.008
351.428	1657.622
365.286	1542.069
214.464	690.815
400.927	999.909
349.652	962.123
284.451	973.087
439.780	942.594
408.710	1200.436
END IONS
BEGIN IONS
TITLE=id=PRD000211;PRIDE_Exp_Complete_Ac_12575.xml;spectrum=1594
303.605	12196.696
551.643	100103.695
324.958	55331.160
701.637	17717.215
740.836	181789.063
310.821	145215.750
244.098	48151.816
281.596	16220.884
600.146	57938.766
247.843	8441.813
262.618	32787.914
319.711	6084.207
667.587	328583.906
358.563	8891.283
549.103	82132.102
388.945	6104.323
505.452	35162.633
643.145	20673.895
301.456	55426.895
398.783	166290.266
815.699	101194.352
578.153	17865.133
611.982	8033.972
289.681	52695.211
609.610	316342.469
376.045	16928.455
532.970	150947.578
277.889	19871.469
204.041	71444.523
412.392	4368.746
421.543	9774.667
429.711	120698.016
492.273	7713.675
307.041	81234.695
240.859	76354.367
379.731	74805.813
385.631	254532.578
218.659	149697.953
663.829	31702.162
250.729	158491.625
714.931	21680.012
680.548	392726.063
513.535	16319.062
482.597	37494.051
297.563	383754.125
593.655	526869.000
304.596	440090.469
256.065	17912.531
595.751	204814.047
697.456	14380.971
309.555	41511.055
400.712	28847.615
523.674	42296.480
517.766	41985.848
216.789	621153.688
428.668	391850.000
213.576	164818.016
377.711	25684.785
672.589	5808.104
532.716	1455154.000
221.690	105374.563
233.723	22387.949
223.626	315821.313
625.384	39785.914
316.017	118114.344
698.792	17721.033
750.707	57701.590
512.016	36188.883
223.890	43722.273
475.938	23683.766
426.761	179626.813
202.731	104576.328
645.323	37978.738
554.495	61010.926
425.124	38718.113
410.809	90527.570
319.216	21715.527
436.713	35765.406
477.748	310395.219
229.104	55283.301
446.646	1049230.000
229.585	217241.266
467.141	20794.895
530.612	18750.480
719.453	26486.201
238.652	1123391.750
280.903	28346.721
616.764	30466.836
245.111	87673.063
645.774	42991.848
500.579	47529.816
206.690	218861.750
524.583	83334.180
682.422	260978.250
396.910	15833.028
281.486	72236.125
594.583	706841.438
351.987	97664.602
239.225	157633.891
304.859	82288.109
522.688	135075.094
579.429	45640.992
488.022	38915.520
560.637	36248.461
658.098	71964.578
740.290	141849.625
815.232	12242.323
322.476	36606.707
389.395	91939.078
406.967	26835.213
520.058	267642.031
756.625	109936.727
519.681	870923.500
255.633	61152.527
308.324	32828.520
964.531	55580.785
533.721	1631615.000
327.774	10778.030
498.955	61991.715
323.279	22409.328
367.067	66701.805
371.646	870327.563
856.718	36823.930
252.640	24562.414
499.663	23936.385
628.709	20554.059
561.453	3950.837
504.552	73365.734
888.975	55319.086
205.708	152348.969
552.778	31846.174
402.710	55219.297
665.663	31919.518
317.984	20272.438
605.979	101949.922
271.833	90259.016
975.401	6286.246
307.661	31087.248
354.581	277599.063
415.716	45382.961
700.693	41791.777
518.692	1706395.500
504.896	37941.313
254.408	43672.086
414.037	29381.379
481.914	37796.117
684.861	48159.199
258.960	31629.150
225.600	26052.520
455.776	35614.246
430.884	62043.559
283.117	4110.055
322.819	105202.594
565.704	58165.680
686.946	43407.949
469.806	22453.766
685.614	29941.459
463.573	14912.131
320.873	64378.594
309.146	7676.763
372.714	434455.969
725.707	77784.938
257.521	30561.949
694.850	28963.168
668.127	104188.016
521.581	300261.156
783.491	18744.477
316.778	15414.149
245.767	80547.742
306.613	146780.078
348.107	44083.949
757.775	9490.040
757.584	30102.693
232.884	35941.375
596.821	52794.141
241.415	31444.021
742.564	144262.328
592.552	1017593.938
293.458	31368.762
540.834	56192.266
297.022	38771.270
362.830	39430.531
668.518	100322.484
529.009	53033.820
437.087	51507.180
478.832	36407.250
485.111	51779.441
607.936	112004.281
328.719	40287.469
552.393	26855.354
261.732	107514.797
529.620	57695.586
536.584	153403.516
369.719	972115.938
459.671	613463.938
591.313	4430.465
269.625	16225.585
592.858	172727.641
955.962	23836.592
217.718	84380.695
538.629	87010.719
280.348	101303.516
557.142	52939.969
305.598	113975.234
305.848	23309.479
263.695	3586.046
201.585	115424.570
341.831	18189.563
447.876	47445.777
651.580	30551.734
250.031	2385.477
248.480	38363.820
743.513	13852.747
543.448	38787.898
452.798	69440.672
264.460	67296.664
407.606	43220.559
484.919	175301.172
346.740	32970.195
638.230	57519.598
591.089	31425.547
299.170	22641.695
589.472	33194.086
729.022	59068.773
315.504	98440.188
448.660	56980.379
681.392	150190.391
666.681	333429.469
699.460	14211.549
613.697	30029.156
544.913	11339.061
311.714	76938.828
258.672	474091.719
697.857	13991.271
210.369	123928.359
384.936	144025.172
401.823	159454.188
406.671	57808.949
405.602	41919.184
581.397	14900.945
521.935	124957.313
221.065	38199.086
332.572	155228.125
537.020	9284.938
556.394	55905.441
204.670	1100589.375
341.076	44582.531
651.037	13326.936
669.536	34152.645
612.720	72653.313
595.244	82715.703
430.477	88358.539
431.517	17602.219
232.716	201264.172
524.899	13163.897
465.722	36924.949
349.039	24458.604
534.878	52195.211
516.897	27445.229
512.625	61134.262
387.065	9445.795
802.512	9552.437
279.701	133086.484
330.854	17878.098
475.811	214457.250
208.491	135754.734
212.728	119171.414
253.254	76852.641
647.754	73770.758
336.649	89922.313
222.616	1445976.500
321.733	8097.417
203.654	64544.316
680.931	123223.047
602.198	56824.289
308.771	33500.117
410.240	32643.855
443.049	93806.313
326.761	41813.414
413.030	147169.766
335.779	85968.656
226.962	68803.484
200.951	6360.559
230.540	180247.297
380.852	14493.499
402.170	41093.617
447.668	310869.313
317.519	67251.141
224.877	38395.914
274.669	38491.422
401.212	64133.391
409.791	90167.422
755.484	84814.773
457.788	49567.824
630.642	24587.496
553.678	70496.133
373.854	91931.656
295.072	10222.099
654.782	17093.145
461.687	374221.125
637.616	64691.539
619.531	30373.188
313.416	21263.900
469.458	34425.070
525.895	55944.949
355.824	11438.349
388.523	575579.625
610.811	169766.484
260.003	2260.775
211.700	114216.344
597.576	9365.647
242.696	77606.414
446.977	13832.880
254.803	111881.367
695.643	15637.264
239.669	258656.703
741.712	172318.516
247.332	50906.023
370.645	1116742.500
215.326	4513.071
256.901	174995.375
953.603	65106.262
479.272	38830.391
393.053	37711.250
378.584	54226.922
386.803	110945.336
817.507	41981.770
759.677	10299.646
231.385	34030.898
624.774	83646.805
355.456	68199.242
478.449	12612.661
527.336	32669.346
684.548	129736.313
318.785	54206.688
391.556	155581.250
433.895	42498.414
281.966	25151.949
235.674	201492.953
259.656	57480.863
814.728	62560.285
244.762	54498.828
678.141	25547.328
666.859	75231.625
386.475	232943.531
485.420	24404.021
754.581	87208.727
554.691	10787.411
515.933	53418.930
503.517	41684.457
327.250	105017.508
360.542	22884.789
427.342	63008.375
286.533	197313.859
214.696	117974.422
391.008	111519.992
582.432	46484.160
454.747	68765.648
301.078	12883.825
368.867	251662.078
509.857	13012.900
272.822	233339.094
251.660	144487.875
607.050	43629.965
818.795	31526.928
564.919	11934.309
274.939	5018.267
520.786	524645.438
364.536	19028.895
336.066	27600.488
682.739	123847.227
621.606	29828.650
551.977	45108.480
531.352	23304.010
313.844	1504.247
473.574	16461.914
432.717	130659.195
253.514	5669.877
476.895	95799.727
371.042	121973.383
246.246	32136.930
623.888	103559.828
547.663	30754.096
506.764	17972.102
264.784	57119.910
731.566	92588.180
745.354	32846.090
728.147	9195.666
440.922	187668.344
673.085	105727.305
394.899	50558.918
248.809	16692.049
311.376	83425.313
208.805	87573.891
515.392	33554.016
790.604	27616.930
610.204	49819.598
753.725	61174.414
620.835	27088.566
203.000	6749.595
325.416	3497.760
354.943	33755.441
344.898	51464.816
460.669	320368.000
672.106	39175.281
442.751	417810.531
567.825	9538.223
224.604	420134.906
441.205	26837.232
638.770	13562.723
340.224	18183.852
678.907	10290.262
669.130	16801.529
549.778	231919.422
217.071	25349.141
268.902	92163.641
464.719	49235.238
383.458	38888.535
200.658	181121.375
278.719	773015.625
397.854	72361.828
466.110	34899.063
262.839	8624.574
789.706	19085.689
387.771	64411.336
210.735	189651.344
213.770	46694.742
648.761	17044.254
808.862	42426.957
228.694	1126597.125
352.872	37346.758
687.401	61373.512
685.354	35456.520
537.881	15559.897
772.826	102488.109
409.340	31822.355
282.789	51238.902
922.790	32652.916
236.703	169603.047
611.666	141202.625
594.774	58270.500
541.666	18235.381
632.641	19235.992
219.809	68581.367
481.306	13504.023
674.687	39044.391
314.630	93824.813
479.831	18035.334
419.678	54606.660
495.703	4828.131
302.886	152071.500
625.642	7692.387
338.868	42064.598
282.546	140960.594
542.528	54512.824
652.565	43875.207
270.904	195310.172
742.221	55655.359
653.518	90212.711
240.534	236295.844
1110.513	0.000
235.189	11612.993
433.010	7047.809
563.328	19987.424
441.699	79806.000
413.738	46681.449
443.600	118824.469
593.932	52837.551
299.731	120692.320
390.748	396571.031
393.824	4087.834
517.555	75349.836
418.972	52964.281
273.788	52230.996
246.777	294645.969
576.475	11770.305
296.691	1237406.625
480.677	87449.211
263.328	60907.172
780.726	11222.465
250.962	25514.568
535.649	262304.969
300.473	38425.105
429.058	207036.203
274.290	5199.188
418.667	101146.836
962.088	63581.848
230.852	90345.211
516.478	65454.898
411.769	31701.441
744.648	5664.753
872.662	19357.549
292.758	134482.422
356.561	74769.563
758.477	39405.797
735.468	33154.484
468.887	39827.117
608.699	635631.563
716.950	17597.994
647.076	32779.965
462.730	135802.328
326.263	6965.116
298.595	773530.625
222.795	284637.656
688.595	29881.707
683.872	33683.676
312.729	167115.719
332.952	4913.270
340.674	39836.648
683.554	96556.609
464.273	31470.916
671.641	17547.762
277.608	99133.563
463.155	76396.766
350.729	25462.758
445.896	87676.891
702.732	12570.806
891.443	59281.875
550.754	88721.781
404.410	13577.635
458.956	150870.078
260.792	134151.313
408.972	28156.076
414.606	60688.863
350.203	39644.781
614.766	19418.699
540.108	32489.758
380.349	19451.205
415.009	39332.023
501.977	68113.133
241.770	41278.129
384.661	895147.688
587.599	5769.758
229.845	24223.793
681.710	68781.938
417.831	5786.873
397.436	37696.719
546.004	31665.705
727.994	24985.709
382.602	21836.039
266.719	22662.994
243.308	57859.953
465.084	112713.172
488.349	21476.020
266.472	123276.664
284.583	131242.703
209.563	100621.773
392.089	98199.375
801.910	29760.016
771.606	58761.598
399.401	14078.248
226.649	526230.188
636.754	90303.992
427.928	105611.859
493.779	28221.486
283.643	49754.910
689.542	26057.396
328.357	82507.047
451.965	82288.672
486.000	62484.898
606.664	1168006.500
234.764	1053714.250
231.796	22722.672
227.754	68110.664
740.992	28094.459
579.790	26768.047
411.025	13444.990
502.640	68366.305
748.962	91198.578
675.538	26328.244
356.762	12971.321
343.602	7734.280
396.582	73666.039
424.837	52664.164
310.296	53011.938
478.224	11430.400
362.205	28527.352
383.023	15608.573
444.708	3307886.000
601.081	21904.713
284.984	102650.125
816.768	17439.764
295.725	666587.750
214.266	42765.879
458.703	1333829.250
334.724	23291.711
403.721	89552.664
416.802	29843.461
490.967	36758.297
534.649	501392.281
668.766	30033.279
537.615	139480.719
425.936	58656.262
220.672	647820.250
276.658	173276.500
520.998	33081.172
374.504	53834.262
294.668	1395939.875
288.522	48626.055
202.362	139359.672
275.590	25436.965
888.035	79076.359
489.910	39720.895
743.286	60648.211
445.666	1377909.875
290.641	28076.463
392.688	53756.816
775.324	15216.774
300.875	31512.396
399.178	58448.875
607.677	723897.625
252.207	140691.625
207.670	29133.664
486.395	7819.490
472.212	32520.900
830.178	48383.832
368.627	2205667.500
244.558	95140.422
END IONS
BEGIN IONS
TITLE=id=PRD000211;PRIDE_Exp_Complete_Ac_12575.xml;spectrum=1589
PEPMASS=681.3578491210938
382.249	2649.154
384.646	1967.993
420.646	557.577
428.452	978.245
246.448	2485.719
440.207	1355.829
677.050	579.937
223.445	1797.358
589.966	11598.008
587.371	2364.085
539.841	372.370
513.703	2106.956
243.197	1938.850
503.860	924.692
671.653	2518.791
241.453	966.884
239.437	4015.738
588.363	7531.624
656.140	4904.668
443.669	256.355
318.042	616.116
335.436	245.707
294.467	32301.588
220.491	5701.186
442.520	18872.031
608.160	485.043
292.711	1121.306
228.970	2302.233
646.438	586.361
607.058	311.418
459.643	147.742
443.198	1947.204
369.506	11182.477
663.586	1288.373
249.690	491.761
295.493	9916.954
230.396	830.097
238.461	19671.926
297.584	883.556
638.400	80.999
208.188	641.983
590.615	3544.618
229.713	736.675
537.841	408.255
516.235	15982.853
222.546	4328.747
296.498	3684.009
563.853	1129.182
573.457	755.546
310.328	1330.790
682.454	1562.732
591.441	580.994
679.527	1263.616
227.443	987.471
312.306	508.686
310.831	268.406
367.089	945.816
299.575	591.032
668.312	1314.768
619.494	1131.410
245.458	1203.150
371.451	138.648
252.888	1105.167
303.639	678.148
960.834	0.000
240.441	1712.655
702.242	303.865
298.511	1681.989
315.852	1707.262
368.564	44821.516
517.623	259.802
241.882	226.779
617.657	1108.051
665.455	581.244
517.293	1614.421
653.240	425.049
224.325	731.187
366.340	1409.083
414.453	1040.449
301.557	747.958
416.850	301.447
221.288	202.654
226.490	1385.706
300.326	563.037
END IONS
BEGIN IONS
TITLE=id=PRD000211;PRIDE_Exp_Complete_Ac_12575.xml;spectrum=1952
PEPMASS=484.9584655761719
526.254	766.897
333.114	2689.004
506.052	409.556
483.481	758.166
359.687	7891.927
437.317	595.924
509.595	686.530
220.484	540.492
291.300	1236.120
260.655	3668.725
430.250	662.672
446.717	977.085
226.529	752.790
450.854	854.968
545.085	265.372
252.332	357.350
358.676	38773.109
441.841	642.625
476.146	1115.613
466.536	1018.902
596.729	806.247
378.888	504.843
381.514	390.389
378.056	402.766
463.329	1164.380
209.606	1080.684
361.887	261.572
368.451	2067.732
955.939	0.000
353.321	800.996
379.565	579.860
440.866	4521.575
482.924	2208.188
519.840	394.407
487.841	451.089
334.579	2117.372
210.660	694.573
468.480	447.299
411.643	456.547
291.684	1454.876
314.486	620.395
460.909	2459.991
848.444	162.698
467.802	3684.272
480.510	79.402
421.724	394.505
396.805	1314.744
427.529	683.579
628.377	809.949
413.327	504.321
377.322	350.487
481.654	1127.931
489.260	1725.743
464.910	897.945
479.539	347.935
246.444	463.998
504.437	348.164
290.642	17000.627
486.959	863.106
234.491	136.910
END IONS
BEGIN IONS
TITLE=id=PRD000211;PRIDE_Exp_Complete_Ac_12575.xml;spectrum=1949
PEPMASS=398.6577453613281
401.958	1144.142
208.453	661.677
457.529	0.000
END IONS
